type,word1,word2,word3,word4,BlockType,ShortInstr,LongInstr,practice_block.thisRepN,practice_block.thisTrialN,practice_block.thisN,practice_block.thisIndex,word_presentation_practice.thisRepN,word_presentation_practice.thisTrialN,word_presentation_practice.thisN,word_presentation_practice.thisIndex,block.thisRepN,block.thisTrialN,block.thisN,block.thisIndex,training_block.thisRepN,training_block.thisTrialN,training_block.thisN,training_block.thisIndex,word_presentation_training.thisRepN,word_presentation_training.thisTrialN,word_presentation_training.thisN,word_presentation_training.thisIndex,word_presentation.thisRepN,word_presentation.thisTrialN,word_presentation.thisN,word_presentation.thisIndex,key_resp_2.keys,key_resp_2.rt,key_resp_8.keys,key_resp_8.rt,key_resp_15.keys,key_resp_15.rt,key_resp_6.keys,key_resp_6.rt,key_resp_7.keys,key_resp_7.rt,date,frameRate,expName,session,participant,
training,viska,lukta,rodna,gråta,,,,0,0,0,0,0,0,0,0,,,,,,,,,,,,,,,,,space,9.69459779991,,,,,,,,,2021_Apr_09_1311,60.1359433265,sp13_replication_swe,1,52,
training,grubbla,anta,vakna,smaka,,,,0,0,0,0,0,1,1,2,,,,,,,,,,,,,,,,,space,9.53899929998,,,,,,,,,2021_Apr_09_1311,60.1359433265,sp13_replication_swe,1,52,
training,ropa,prata,falla,skratta,,,,0,0,0,0,0,2,2,1,,,,,,,,,,,,,,,,,space,7.75250800001,,,,,,,,,2021_Apr_09_1311,60.1359433265,sp13_replication_swe,1,52,
training,sova,le,titta,stanna,,,,0,0,0,0,0,3,3,3,,,,,,,,,,,,,,,,,space,5.52191130002,,,,,,,,,2021_Apr_09_1311,60.1359433265,sp13_replication_swe,1,52,
training,vakna,grubbla,sova,stanna,ARM,få göra en rytmisk rörelse med dina händer,Experimentledaren kommer nu att visa dig den rytmiska rörelsen som du ska göra med dina händer. Du kommer att få gott om tid för att öva på den innan du börjar med uppgiften.,0,0,0,0,,,,,0,0,0,0,0,0,0,0,0,0,0,3,,,,,space,13.8421473999,b,11.9068252,return,857.098078,space,33.2528419,,,2021_Apr_09_1311,60.1359433265,sp13_replication_swe,1,52,
training,titta,rodna,le,prata,ARM,få göra en rytmisk rörelse med dina händer,Experimentledaren kommer nu att visa dig den rytmiska rörelsen som du ska göra med dina händer. Du kommer att få gott om tid för att öva på den innan du börjar med uppgiften.,0,0,0,0,,,,,0,0,0,0,0,0,0,0,0,1,1,1,,,,,space,10.0792332001,,,,,,,,,2021_Apr_09_1311,60.1359433265,sp13_replication_swe,1,52,
training,lukta,gråta,smaka,viska,ARM,få göra en rytmisk rörelse med dina händer,Experimentledaren kommer nu att visa dig den rytmiska rörelsen som du ska göra med dina händer. Du kommer att få gott om tid för att öva på den innan du börjar med uppgiften.,0,0,0,0,,,,,0,0,0,0,0,0,0,0,0,2,2,2,,,,,space,6.19187960005,,,,,,,,,2021_Apr_09_1311,60.1359433265,sp13_replication_swe,1,52,
training,anta,skratta,ropa,falla,ARM,få göra en rytmisk rörelse med dina händer,Experimentledaren kommer nu att visa dig den rytmiska rörelsen som du ska göra med dina händer. Du kommer att få gott om tid för att öva på den innan du börjar med uppgiften.,0,0,0,0,,,,,0,0,0,0,0,0,0,0,0,3,3,0,,,,,space,8.41628439992,,,,,,,,,2021_Apr_09_1311,60.1359433265,sp13_replication_swe,1,52,
leg,marschera,ränna,stövla,stega,ARM,få göra en rytmisk rörelse med dina händer,Experimentledaren kommer nu att visa dig den rytmiska rörelsen som du ska göra med dina händer. Du kommer att få gott om tid för att öva på den innan du börjar med uppgiften.,0,0,0,0,,,,,0,0,0,0,0,0,0,0,,,,,0,0,0,0,space,4.57885729999,b,27.3737294,,,,,space,2.56714640011,2021_Apr_09_1311,60.1359433265,sp13_replication_swe,1,52,
leg,svaja,ila,stå,vada,ARM,få göra en rytmisk rörelse med dina händer,Experimentledaren kommer nu att visa dig den rytmiska rörelsen som du ska göra med dina händer. Du kommer att få gott om tid för att öva på den innan du börjar med uppgiften.,0,0,0,0,,,,,0,0,0,0,0,0,0,0,,,,,0,1,1,1,space,6.51951900008,,,,,,,,,2021_Apr_09_1311,60.1359433265,sp13_replication_swe,1,52,
leg,strutta,smyga,trippa,lunka,ARM,få göra en rytmisk rörelse med dina händer,Experimentledaren kommer nu att visa dig den rytmiska rörelsen som du ska göra med dina händer. Du kommer att få gott om tid för att öva på den innan du börjar med uppgiften.,0,0,0,0,,,,,0,0,0,0,0,0,0,0,,,,,0,2,2,2,space,4.45383709995,,,,,,,,,2021_Apr_09_1311,60.1359433265,sp13_replication_swe,1,52,
arm,greppa,knycka,skura,linda,ARM,få göra en rytmisk rörelse med dina händer,Experimentledaren kommer nu att visa dig den rytmiska rörelsen som du ska göra med dina händer. Du kommer att få gott om tid för att öva på den innan du börjar med uppgiften.,0,0,0,0,,,,,0,0,0,0,0,0,0,0,,,,,0,3,3,3,space,4.95602769998,,,,,,,,,2021_Apr_09_1311,60.1359433265,sp13_replication_swe,1,52,
arm,slå,sno,repa,fånga,ARM,få göra en rytmisk rörelse med dina händer,Experimentledaren kommer nu att visa dig den rytmiska rörelsen som du ska göra med dina händer. Du kommer att få gott om tid för att öva på den innan du börjar med uppgiften.,0,0,0,0,,,,,0,0,0,0,0,0,0,0,,,,,0,4,4,4,space,5.41090579994,,,,,,,,,2021_Apr_09_1311,60.1359433265,sp13_replication_swe,1,52,
leg,vandra,flanera,stappla,vanka,ARM,få göra en rytmisk rörelse med dina händer,Experimentledaren kommer nu att visa dig den rytmiska rörelsen som du ska göra med dina händer. Du kommer att få gott om tid för att öva på den innan du börjar med uppgiften.,0,0,0,0,,,,,0,0,0,0,0,0,0,0,,,,,0,5,5,5,space,4.27882959996,,,,,,,,,2021_Apr_09_1311,60.1359433265,sp13_replication_swe,1,52,
leg,traska,pinna,kliva,ströva,ARM,få göra en rytmisk rörelse med dina händer,Experimentledaren kommer nu att visa dig den rytmiska rörelsen som du ska göra med dina händer. Du kommer att få gott om tid för att öva på den innan du börjar med uppgiften.,0,0,0,0,,,,,0,0,0,0,0,0,0,0,,,,,0,6,6,6,space,5.87778039998,,,,,,,,,2021_Apr_09_1311,60.1359433265,sp13_replication_swe,1,52,
leg,skrida,vackla,hoppa,stiga,ARM,få göra en rytmisk rörelse med dina händer,Experimentledaren kommer nu att visa dig den rytmiska rörelsen som du ska göra med dina händer. Du kommer att få gott om tid för att öva på den innan du börjar med uppgiften.,0,0,0,0,,,,,0,0,0,0,0,0,0,0,,,,,0,7,7,7,space,3.37108409998,,,,,,,,,2021_Apr_09_1311,60.1359433265,sp13_replication_swe,1,52,
arm,skala,vika,slunga,peta,ARM,få göra en rytmisk rörelse med dina händer,Experimentledaren kommer nu att visa dig den rytmiska rörelsen som du ska göra med dina händer. Du kommer att få gott om tid för att öva på den innan du börjar med uppgiften.,0,0,0,0,,,,,0,0,0,0,0,0,0,0,,,,,0,8,8,8,space,3.93039420003,,,,,,,,,2021_Apr_09_1311,60.1359433265,sp13_replication_swe,1,52,
arm,vira,fila,signera,gripa,ARM,få göra en rytmisk rörelse med dina händer,Experimentledaren kommer nu att visa dig den rytmiska rörelsen som du ska göra med dina händer. Du kommer att få gott om tid för att öva på den innan du börjar med uppgiften.,0,0,0,0,,,,,0,0,0,0,0,0,0,0,,,,,0,9,9,9,space,3.52119890007,,,,,,,,,2021_Apr_09_1311,60.1359433265,sp13_replication_swe,1,52,
leg,trampa,löpa,rusa,gå,ARM,få göra en rytmisk rörelse med dina händer,Experimentledaren kommer nu att visa dig den rytmiska rörelsen som du ska göra med dina händer. Du kommer att få gott om tid för att öva på den innan du börjar med uppgiften.,0,0,0,0,,,,,0,0,0,0,0,0,0,0,,,,,0,10,10,10,space,2.5573174,,,,,,,,,2021_Apr_09_1311,60.1359433265,sp13_replication_swe,1,52,
arm,rista,kasta,slipa,klicka,ARM,få göra en rytmisk rörelse med dina händer,Experimentledaren kommer nu att visa dig den rytmiska rörelsen som du ska göra med dina händer. Du kommer att få gott om tid för att öva på den innan du börjar med uppgiften.,0,0,0,0,,,,,0,0,0,0,0,0,0,0,,,,,0,11,11,11,space,3.53619270003,,,,,,,,,2021_Apr_09_1311,60.1359433265,sp13_replication_swe,1,52,
arm,polera,gnugga,dunka,skrubba,ARM,få göra en rytmisk rörelse med dina händer,Experimentledaren kommer nu att visa dig den rytmiska rörelsen som du ska göra med dina händer. Du kommer att få gott om tid för att öva på den innan du börjar med uppgiften.,0,0,0,0,,,,,0,0,0,0,0,0,0,0,,,,,0,12,12,12,space,4.9011307999,,,,,,,,,2021_Apr_09_1311,60.1359433265,sp13_replication_swe,1,52,
leg,vingla,knäa,ragla,cykla,ARM,få göra en rytmisk rörelse med dina händer,Experimentledaren kommer nu att visa dig den rytmiska rörelsen som du ska göra med dina händer. Du kommer att få gott om tid för att öva på den innan du börjar med uppgiften.,0,0,0,0,,,,,0,0,0,0,0,0,0,0,,,,,0,13,13,13,space,4.68614610005,,,,,,,,,2021_Apr_09_1311,60.1359433265,sp13_replication_swe,1,52,
arm,torka,fläta,snärta,klösa,ARM,få göra en rytmisk rörelse med dina händer,Experimentledaren kommer nu att visa dig den rytmiska rörelsen som du ska göra med dina händer. Du kommer att få gott om tid för att öva på den innan du börjar med uppgiften.,0,0,0,0,,,,,0,0,0,0,0,0,0,0,,,,,0,14,14,14,space,4.90001650003,,,,,,,,,2021_Apr_09_1311,60.1359433265,sp13_replication_swe,1,52,
arm,grabba,knacka,hissa,rota,ARM,få göra en rytmisk rörelse med dina händer,Experimentledaren kommer nu att visa dig den rytmiska rörelsen som du ska göra med dina händer. Du kommer att få gott om tid för att öva på den innan du börjar med uppgiften.,0,0,0,0,,,,,0,0,0,0,0,0,0,0,,,,,0,15,15,15,space,6.92068940005,,,,,,,,,2021_Apr_09_1311,60.1359433265,sp13_replication_swe,1,52,
leg,halka,fly,skejta,snava,ARM,få göra en rytmisk rörelse med dina händer,Experimentledaren kommer nu att visa dig den rytmiska rörelsen som du ska göra med dina händer. Du kommer att få gott om tid för att öva på den innan du börjar med uppgiften.,0,0,0,0,,,,,0,0,0,0,0,0,0,0,,,,,0,16,16,16,space,5.26330480003,,,,,,,,,2021_Apr_09_1311,60.1359433265,sp13_replication_swe,1,52,
leg,jogga,knalla,stampa,halta,ARM,få göra en rytmisk rörelse med dina händer,Experimentledaren kommer nu att visa dig den rytmiska rörelsen som du ska göra med dina händer. Du kommer att få gott om tid för att öva på den innan du börjar med uppgiften.,0,0,0,0,,,,,0,0,0,0,0,0,0,0,,,,,0,17,17,17,space,5.46153660002,,,,,,,,,2021_Apr_09_1311,60.1359433265,sp13_replication_swe,1,52,
leg,springa,tåga,snubbla,glida,ARM,få göra en rytmisk rörelse med dina händer,Experimentledaren kommer nu att visa dig den rytmiska rörelsen som du ska göra med dina händer. Du kommer att få gott om tid för att öva på den innan du börjar med uppgiften.,0,0,0,0,,,,,0,0,0,0,0,0,0,0,,,,,0,18,18,18,space,5.34666489996,,,,,,,,,2021_Apr_09_1311,60.1359433265,sp13_replication_swe,1,52,
arm,pilla,bulta,plocka,klappa,ARM,få göra en rytmisk rörelse med dina händer,Experimentledaren kommer nu att visa dig den rytmiska rörelsen som du ska göra med dina händer. Du kommer att få gott om tid för att öva på den innan du börjar med uppgiften.,0,0,0,0,,,,,0,0,0,0,0,0,0,0,,,,,0,19,19,19,space,3.96059210005,,,,,,,,,2021_Apr_09_1311,60.1359433265,sp13_replication_swe,1,52,
arm,nypa,borsta,karva,svabba,ARM,få göra en rytmisk rörelse med dina händer,Experimentledaren kommer nu att visa dig den rytmiska rörelsen som du ska göra med dina händer. Du kommer att få gott om tid för att öva på den innan du börjar med uppgiften.,0,0,0,0,,,,,0,0,0,0,0,0,0,0,,,,,0,20,20,20,space,2.41681799991,,,,,,,,,2021_Apr_09_1311,60.1359433265,sp13_replication_swe,1,52,
leg,skynda,linka,svassa,kila,ARM,få göra en rytmisk rörelse med dina händer,Experimentledaren kommer nu att visa dig den rytmiska rörelsen som du ska göra med dina händer. Du kommer att få gott om tid för att öva på den innan du börjar med uppgiften.,0,0,0,0,,,,,0,0,0,0,0,0,0,0,,,,,0,21,21,21,space,4.33511680004,,,,,,,,,2021_Apr_09_1311,60.1359433265,sp13_replication_swe,1,52,
leg,skutta,tassa,promenera,sparka,ARM,få göra en rytmisk rörelse med dina händer,Experimentledaren kommer nu att visa dig den rytmiska rörelsen som du ska göra med dina händer. Du kommer att få gott om tid för att öva på den innan du börjar med uppgiften.,0,0,0,0,,,,,0,0,0,0,0,0,0,0,,,,,0,22,22,22,space,4.17388869997,,,,,,,,,2021_Apr_09_1311,60.1359433265,sp13_replication_swe,1,52,
arm,skyffla,norpa,tvätta,klippa,ARM,få göra en rytmisk rörelse med dina händer,Experimentledaren kommer nu att visa dig den rytmiska rörelsen som du ska göra med dina händer. Du kommer att få gott om tid för att öva på den innan du börjar med uppgiften.,0,0,0,0,,,,,0,0,0,0,0,0,0,0,,,,,0,23,23,23,space,4.0335584,,,,,,,,,2021_Apr_09_1311,60.1359433265,sp13_replication_swe,1,52,
arm,banka,piska,hiva,hacka,ARM,få göra en rytmisk rörelse med dina händer,Experimentledaren kommer nu att visa dig den rytmiska rörelsen som du ska göra med dina händer. Du kommer att få gott om tid för att öva på den innan du börjar med uppgiften.,0,0,0,0,,,,,0,0,0,0,0,0,0,0,,,,,0,24,24,24,space,5.13408540003,,,,,,,,,2021_Apr_09_1311,60.1359433265,sp13_replication_swe,1,52,
arm,putta,daska,rycka,ösa,ARM,få göra en rytmisk rörelse med dina händer,Experimentledaren kommer nu att visa dig den rytmiska rörelsen som du ska göra med dina händer. Du kommer att få gott om tid för att öva på den innan du börjar med uppgiften.,0,0,0,0,,,,,0,0,0,0,0,0,0,0,,,,,0,25,25,25,space,5.89100240008,,,,,,,,,2021_Apr_09_1311,60.1359433265,sp13_replication_swe,1,52,
,,,,,ARM,få göra en rytmisk rörelse med dina händer,Experimentledaren kommer nu att visa dig den rytmiska rörelsen som du ska göra med dina händer. Du kommer att få gott om tid för att öva på den innan du börjar med uppgiften.,0,0,0,0,,,,,0,0,0,0,0,0,0,0,,,,,,,,,,,,,,,,,,,2021_Apr_09_1311,60.1359433265,sp13_replication_swe,1,52,
training,lukta,le,smaka,grubbla,CONTROL,tyst få hålla orden i minnet,"Den här gången behöver du alltså inte utföra några rörelser, utan endast hålla orden tyst i minnet.",0,0,0,0,,,,,0,1,1,1,0,0,0,0,0,0,0,0,,,,,space,3.7103390001,,,return,5.17969780008,space,7.59999170003,,,2021_Apr_09_1311,60.1359433265,sp13_replication_swe,1,52,
training,viska,prata,falla,gråta,CONTROL,tyst få hålla orden i minnet,"Den här gången behöver du alltså inte utföra några rörelser, utan endast hålla orden tyst i minnet.",0,0,0,0,,,,,0,1,1,1,0,0,0,0,0,1,1,2,,,,,space,3.37767700001,,,,,,,,,2021_Apr_09_1311,60.1359433265,sp13_replication_swe,1,52,
training,anta,stanna,rodna,sova,CONTROL,tyst få hålla orden i minnet,"Den här gången behöver du alltså inte utföra några rörelser, utan endast hålla orden tyst i minnet.",0,0,0,0,,,,,0,1,1,1,0,0,0,0,0,2,2,1,,,,,space,4.01903219998,,,,,,,,,2021_Apr_09_1311,60.1359433265,sp13_replication_swe,1,52,
training,ropa,titta,skratta,vakna,CONTROL,tyst få hålla orden i minnet,"Den här gången behöver du alltså inte utföra några rörelser, utan endast hålla orden tyst i minnet.",0,0,0,0,,,,,0,1,1,1,0,0,0,0,0,3,3,3,,,,,space,6.3295950999,,,,,,,,,2021_Apr_09_1311,60.1359433265,sp13_replication_swe,1,52,
arm,svabba,nypa,fila,borsta,CONTROL,tyst få hålla orden i minnet,"Den här gången behöver du alltså inte utföra några rörelser, utan endast hålla orden tyst i minnet.",0,0,0,0,,,,,0,1,1,1,0,0,0,0,,,,,0,0,0,0,space,3.40900370001,b,10.8484246,,,,,space,1.50042020006,2021_Apr_09_1311,60.1359433265,sp13_replication_swe,1,52,
arm,tvätta,hiva,peta,rista,CONTROL,tyst få hålla orden i minnet,"Den här gången behöver du alltså inte utföra några rörelser, utan endast hålla orden tyst i minnet.",0,0,0,0,,,,,0,1,1,1,0,0,0,0,,,,,0,1,1,1,space,4.07782649994,,,,,,,,,2021_Apr_09_1311,60.1359433265,sp13_replication_swe,1,52,
leg,tassa,lunka,kliva,halka,CONTROL,tyst få hålla orden i minnet,"Den här gången behöver du alltså inte utföra några rörelser, utan endast hålla orden tyst i minnet.",0,0,0,0,,,,,0,1,1,1,0,0,0,0,,,,,0,2,2,2,space,5.14865959994,,,,,,,,,2021_Apr_09_1311,60.1359433265,sp13_replication_swe,1,52,
arm,repa,rycka,daska,dunka,CONTROL,tyst få hålla orden i minnet,"Den här gången behöver du alltså inte utföra några rörelser, utan endast hålla orden tyst i minnet.",0,0,0,0,,,,,0,1,1,1,0,0,0,0,,,,,0,3,3,3,space,5.92983919999,,,,,,,,,2021_Apr_09_1311,60.1359433265,sp13_replication_swe,1,52,
leg,gå,knäa,pinna,linka,CONTROL,tyst få hålla orden i minnet,"Den här gången behöver du alltså inte utföra några rörelser, utan endast hålla orden tyst i minnet.",0,0,0,0,,,,,0,1,1,1,0,0,0,0,,,,,0,4,4,4,space,5.01229700004,,,,,,,,,2021_Apr_09_1311,60.1359433265,sp13_replication_swe,1,52,
leg,svaja,vackla,flanera,kila,CONTROL,tyst få hålla orden i minnet,"Den här gången behöver du alltså inte utföra några rörelser, utan endast hålla orden tyst i minnet.",0,0,0,0,,,,,0,1,1,1,0,0,0,0,,,,,0,5,5,5,space,4.17139190005,,,,,,,,,2021_Apr_09_1311,60.1359433265,sp13_replication_swe,1,52,
leg,ila,snubbla,skynda,smyga,CONTROL,tyst få hålla orden i minnet,"Den här gången behöver du alltså inte utföra några rörelser, utan endast hålla orden tyst i minnet.",0,0,0,0,,,,,0,1,1,1,0,0,0,0,,,,,0,6,6,6,space,4.468613,,,,,,,,,2021_Apr_09_1311,60.1359433265,sp13_replication_swe,1,52,
arm,greppa,slunga,fånga,norpa,CONTROL,tyst få hålla orden i minnet,"Den här gången behöver du alltså inte utföra några rörelser, utan endast hålla orden tyst i minnet.",0,0,0,0,,,,,0,1,1,1,0,0,0,0,,,,,0,7,7,7,space,3.72831030004,,,,,,,,,2021_Apr_09_1311,60.1359433265,sp13_replication_swe,1,52,
leg,vandra,stampa,skejta,ströva,CONTROL,tyst få hålla orden i minnet,"Den här gången behöver du alltså inte utföra några rörelser, utan endast hålla orden tyst i minnet.",0,0,0,0,,,,,0,1,1,1,0,0,0,0,,,,,0,8,8,8,space,5.41848599992,,,,,,,,,2021_Apr_09_1311,60.1359433265,sp13_replication_swe,1,52,
leg,glida,ragla,stå,stiga,CONTROL,tyst få hålla orden i minnet,"Den här gången behöver du alltså inte utföra några rörelser, utan endast hålla orden tyst i minnet.",0,0,0,0,,,,,0,1,1,1,0,0,0,0,,,,,0,9,9,9,space,3.41362809995,,,,,,,,,2021_Apr_09_1311,60.1359433265,sp13_replication_swe,1,52,
arm,klappa,pilla,banka,putta,CONTROL,tyst få hålla orden i minnet,"Den här gången behöver du alltså inte utföra några rörelser, utan endast hålla orden tyst i minnet.",0,0,0,0,,,,,0,1,1,1,0,0,0,0,,,,,0,10,10,10,space,3.4529564,,,,,,,,,2021_Apr_09_1311,60.1359433265,sp13_replication_swe,1,52,
leg,löpa,ränna,skutta,sparka,CONTROL,tyst få hålla orden i minnet,"Den här gången behöver du alltså inte utföra några rörelser, utan endast hålla orden tyst i minnet.",0,0,0,0,,,,,0,1,1,1,0,0,0,0,,,,,0,11,11,11,space,3.32426839997,,,,,,,,,2021_Apr_09_1311,60.1359433265,sp13_replication_swe,1,52,
arm,hacka,sno,knycka,slipa,CONTROL,tyst få hålla orden i minnet,"Den här gången behöver du alltså inte utföra några rörelser, utan endast hålla orden tyst i minnet.",0,0,0,0,,,,,0,1,1,1,0,0,0,0,,,,,0,12,12,12,space,3.82185140008,,,,,,,,,2021_Apr_09_1311,60.1359433265,sp13_replication_swe,1,52,
leg,jogga,halta,marschera,rusa,CONTROL,tyst få hålla orden i minnet,"Den här gången behöver du alltså inte utföra några rörelser, utan endast hålla orden tyst i minnet.",0,0,0,0,,,,,0,1,1,1,0,0,0,0,,,,,0,13,13,13,space,3.66823389998,,,,,,,,,2021_Apr_09_1311,60.1359433265,sp13_replication_swe,1,52,
arm,skala,signera,hissa,plocka,CONTROL,tyst få hålla orden i minnet,"Den här gången behöver du alltså inte utföra några rörelser, utan endast hålla orden tyst i minnet.",0,0,0,0,,,,,0,1,1,1,0,0,0,0,,,,,0,14,14,14,space,3.39238940005,,,,,,,,,2021_Apr_09_1311,60.1359433265,sp13_replication_swe,1,52,
arm,vika,gripa,slå,torka,CONTROL,tyst få hålla orden i minnet,"Den här gången behöver du alltså inte utföra några rörelser, utan endast hålla orden tyst i minnet.",0,0,0,0,,,,,0,1,1,1,0,0,0,0,,,,,0,15,15,15,space,4.80688769999,,,,,,,,,2021_Apr_09_1311,60.1359433265,sp13_replication_swe,1,52,
leg,fly,tåga,stega,strutta,CONTROL,tyst få hålla orden i minnet,"Den här gången behöver du alltså inte utföra några rörelser, utan endast hålla orden tyst i minnet.",0,0,0,0,,,,,0,1,1,1,0,0,0,0,,,,,0,16,16,16,space,3.84277400002,,,,,,,,,2021_Apr_09_1311,60.1359433265,sp13_replication_swe,1,52,
leg,springa,stappla,stövla,svassa,CONTROL,tyst få hålla orden i minnet,"Den här gången behöver du alltså inte utföra några rörelser, utan endast hålla orden tyst i minnet.",0,0,0,0,,,,,0,1,1,1,0,0,0,0,,,,,0,17,17,17,space,3.41504969995,,,,,,,,,2021_Apr_09_1311,60.1359433265,sp13_replication_swe,1,52,
leg,vada,trippa,vingla,snava,CONTROL,tyst få hålla orden i minnet,"Den här gången behöver du alltså inte utföra några rörelser, utan endast hålla orden tyst i minnet.",0,0,0,0,,,,,0,1,1,1,0,0,0,0,,,,,0,18,18,18,space,6.0573018,,,,,,,,,2021_Apr_09_1311,60.1359433265,sp13_replication_swe,1,52,
arm,ösa,snärta,rota,polera,CONTROL,tyst få hålla orden i minnet,"Den här gången behöver du alltså inte utföra några rörelser, utan endast hålla orden tyst i minnet.",0,0,0,0,,,,,0,1,1,1,0,0,0,0,,,,,0,19,19,19,space,3.34130720003,,,,,,,,,2021_Apr_09_1311,60.1359433265,sp13_replication_swe,1,52,
leg,promenera,knalla,hoppa,cykla,CONTROL,tyst få hålla orden i minnet,"Den här gången behöver du alltså inte utföra några rörelser, utan endast hålla orden tyst i minnet.",0,0,0,0,,,,,0,1,1,1,0,0,0,0,,,,,0,20,20,20,space,4.68158119998,,,,,,,,,2021_Apr_09_1311,60.1359433265,sp13_replication_swe,1,52,
arm,fläta,kasta,piska,karva,CONTROL,tyst få hålla orden i minnet,"Den här gången behöver du alltså inte utföra några rörelser, utan endast hålla orden tyst i minnet.",0,0,0,0,,,,,0,1,1,1,0,0,0,0,,,,,0,21,21,21,space,3.87586759997,,,,,,,,,2021_Apr_09_1311,60.1359433265,sp13_replication_swe,1,52,
arm,linda,grabba,klicka,vira,CONTROL,tyst få hålla orden i minnet,"Den här gången behöver du alltså inte utföra några rörelser, utan endast hålla orden tyst i minnet.",0,0,0,0,,,,,0,1,1,1,0,0,0,0,,,,,0,22,22,22,space,2.81894659996,,,,,,,,,2021_Apr_09_1311,60.1359433265,sp13_replication_swe,1,52,
leg,trampa,traska,skrida,vanka,CONTROL,tyst få hålla orden i minnet,"Den här gången behöver du alltså inte utföra några rörelser, utan endast hålla orden tyst i minnet.",0,0,0,0,,,,,0,1,1,1,0,0,0,0,,,,,0,23,23,23,space,6.87925719994,,,,,,,,,2021_Apr_09_1311,60.1359433265,sp13_replication_swe,1,52,
arm,bulta,skyffla,klippa,klösa,CONTROL,tyst få hålla orden i minnet,"Den här gången behöver du alltså inte utföra några rörelser, utan endast hålla orden tyst i minnet.",0,0,0,0,,,,,0,1,1,1,0,0,0,0,,,,,0,24,24,24,space,4.34082739998,,,,,,,,,2021_Apr_09_1311,60.1359433265,sp13_replication_swe,1,52,
arm,knacka,gnugga,skrubba,skura,CONTROL,tyst få hålla orden i minnet,"Den här gången behöver du alltså inte utföra några rörelser, utan endast hålla orden tyst i minnet.",0,0,0,0,,,,,0,1,1,1,0,0,0,0,,,,,0,25,25,25,space,3.4942205,,,,,,,,,2021_Apr_09_1311,60.1359433265,sp13_replication_swe,1,52,
,,,,,CONTROL,tyst få hålla orden i minnet,"Den här gången behöver du alltså inte utföra några rörelser, utan endast hålla orden tyst i minnet.",0,0,0,0,,,,,0,1,1,1,0,0,0,0,,,,,,,,,,,,,,,,,,,2021_Apr_09_1311,60.1359433265,sp13_replication_swe,1,52,
training,titta,prata,gråta,vakna,LEG,få göra en rytmisk rörelse med dina fötter,Experimentledaren kommer nu att visa dig den rytmiska rörelsen som du ska göra med dina fötter. Du kommer att få gott om tid för att öva på den innan du börjar med uppgiften.,0,0,0,0,,,,,0,2,2,2,0,0,0,0,0,0,0,0,,,,,space,9.39275180001,,,return,1020.2701713,space,3.65045159997,,,2021_Apr_09_1311,60.1359433265,sp13_replication_swe,1,52,
training,rodna,anta,stanna,ropa,LEG,få göra en rytmisk rörelse med dina fötter,Experimentledaren kommer nu att visa dig den rytmiska rörelsen som du ska göra med dina fötter. Du kommer att få gott om tid för att öva på den innan du börjar med uppgiften.,0,0,0,0,,,,,0,2,2,2,0,0,0,0,0,1,1,3,,,,,space,3.7395555001,,,,,,,,,2021_Apr_09_1311,60.1359433265,sp13_replication_swe,1,52,
training,skratta,sova,lukta,viska,LEG,få göra en rytmisk rörelse med dina fötter,Experimentledaren kommer nu att visa dig den rytmiska rörelsen som du ska göra med dina fötter. Du kommer att få gott om tid för att öva på den innan du börjar med uppgiften.,0,0,0,0,,,,,0,2,2,2,0,0,0,0,0,2,2,1,,,,,space,3.99639600003,,,,,,,,,2021_Apr_09_1311,60.1359433265,sp13_replication_swe,1,52,
training,smaka,grubbla,falla,le,LEG,få göra en rytmisk rörelse med dina fötter,Experimentledaren kommer nu att visa dig den rytmiska rörelsen som du ska göra med dina fötter. Du kommer att få gott om tid för att öva på den innan du börjar med uppgiften.,0,0,0,0,,,,,0,2,2,2,0,0,0,0,0,3,3,2,,,,,space,4.08504210005,,,,,,,,,2021_Apr_09_1311,60.1359433265,sp13_replication_swe,1,52,
arm,peta,svabba,fila,snärta,LEG,få göra en rytmisk rörelse med dina fötter,Experimentledaren kommer nu att visa dig den rytmiska rörelsen som du ska göra med dina fötter. Du kommer att få gott om tid för att öva på den innan du börjar med uppgiften.,0,0,0,0,,,,,0,2,2,2,0,0,0,0,,,,,0,0,0,0,space,4.85212739999,b,6.47473749996,,,,,space,1.93404259998,2021_Apr_09_1311,60.1359433265,sp13_replication_swe,1,52,
arm,klösa,hacka,fånga,knacka,LEG,få göra en rytmisk rörelse med dina fötter,Experimentledaren kommer nu att visa dig den rytmiska rörelsen som du ska göra med dina fötter. Du kommer att få gott om tid för att öva på den innan du börjar med uppgiften.,0,0,0,0,,,,,0,2,2,2,0,0,0,0,,,,,0,1,1,1,space,2.45155410003,,,,,,,,,2021_Apr_09_1311,60.1359433265,sp13_replication_swe,1,52,
leg,trampa,jogga,lunka,rusa,LEG,få göra en rytmisk rörelse med dina fötter,Experimentledaren kommer nu att visa dig den rytmiska rörelsen som du ska göra med dina fötter. Du kommer att få gott om tid för att öva på den innan du börjar med uppgiften.,0,0,0,0,,,,,0,2,2,2,0,0,0,0,,,,,0,2,2,2,space,4.75718409999,,,,,,,,,2021_Apr_09_1311,60.1359433265,sp13_replication_swe,1,52,
arm,polera,rista,piska,klippa,LEG,få göra en rytmisk rörelse med dina fötter,Experimentledaren kommer nu att visa dig den rytmiska rörelsen som du ska göra med dina fötter. Du kommer att få gott om tid för att öva på den innan du börjar med uppgiften.,0,0,0,0,,,,,0,2,2,2,0,0,0,0,,,,,0,3,3,3,space,2.98308539996,,,,,,,,,2021_Apr_09_1311,60.1359433265,sp13_replication_swe,1,52,
leg,kliva,tåga,halka,skynda,LEG,få göra en rytmisk rörelse med dina fötter,Experimentledaren kommer nu att visa dig den rytmiska rörelsen som du ska göra med dina fötter. Du kommer att få gott om tid för att öva på den innan du börjar med uppgiften.,0,0,0,0,,,,,0,2,2,2,0,0,0,0,,,,,0,4,4,4,space,3.46727499994,,,,,,,,,2021_Apr_09_1311,60.1359433265,sp13_replication_swe,1,52,
leg,stövla,springa,svaja,skutta,LEG,få göra en rytmisk rörelse med dina fötter,Experimentledaren kommer nu att visa dig den rytmiska rörelsen som du ska göra med dina fötter. Du kommer att få gott om tid för att öva på den innan du börjar med uppgiften.,0,0,0,0,,,,,0,2,2,2,0,0,0,0,,,,,0,5,5,5,space,3.1439879,,,,,,,,,2021_Apr_09_1311,60.1359433265,sp13_replication_swe,1,52,
arm,kasta,skrubba,fläta,skyffla,LEG,få göra en rytmisk rörelse med dina fötter,Experimentledaren kommer nu att visa dig den rytmiska rörelsen som du ska göra med dina fötter. Du kommer att få gott om tid för att öva på den innan du börjar med uppgiften.,0,0,0,0,,,,,0,2,2,2,0,0,0,0,,,,,0,6,6,6,space,3.96326370002,,,,,,,,,2021_Apr_09_1311,60.1359433265,sp13_replication_swe,1,52,
arm,linda,nypa,pilla,putta,LEG,få göra en rytmisk rörelse med dina fötter,Experimentledaren kommer nu att visa dig den rytmiska rörelsen som du ska göra med dina fötter. Du kommer att få gott om tid för att öva på den innan du börjar med uppgiften.,0,0,0,0,,,,,0,2,2,2,0,0,0,0,,,,,0,7,7,7,space,2.68643950007,,,,,,,,,2021_Apr_09_1311,60.1359433265,sp13_replication_swe,1,52,
arm,repa,norpa,borsta,karva,LEG,få göra en rytmisk rörelse med dina fötter,Experimentledaren kommer nu att visa dig den rytmiska rörelsen som du ska göra med dina fötter. Du kommer att få gott om tid för att öva på den innan du börjar med uppgiften.,0,0,0,0,,,,,0,2,2,2,0,0,0,0,,,,,0,8,8,8,space,5.06362849998,,,,,,,,,2021_Apr_09_1311,60.1359433265,sp13_replication_swe,1,52,
leg,fly,pinna,vandra,svassa,LEG,få göra en rytmisk rörelse med dina fötter,Experimentledaren kommer nu att visa dig den rytmiska rörelsen som du ska göra med dina fötter. Du kommer att få gott om tid för att öva på den innan du börjar med uppgiften.,0,0,0,0,,,,,0,2,2,2,0,0,0,0,,,,,0,9,9,9,space,2.69744040002,,,,,,,,,2021_Apr_09_1311,60.1359433265,sp13_replication_swe,1,52,
leg,snava,strutta,stega,ränna,LEG,få göra en rytmisk rörelse med dina fötter,Experimentledaren kommer nu att visa dig den rytmiska rörelsen som du ska göra med dina fötter. Du kommer att få gott om tid för att öva på den innan du börjar med uppgiften.,0,0,0,0,,,,,0,2,2,2,0,0,0,0,,,,,0,10,10,10,space,3.9739329,,,,,,,,,2021_Apr_09_1311,60.1359433265,sp13_replication_swe,1,52,
arm,vira,gnugga,torka,rycka,LEG,få göra en rytmisk rörelse med dina fötter,Experimentledaren kommer nu att visa dig den rytmiska rörelsen som du ska göra med dina fötter. Du kommer att få gott om tid för att öva på den innan du börjar med uppgiften.,0,0,0,0,,,,,0,2,2,2,0,0,0,0,,,,,0,11,11,11,space,2.61316840001,,,,,,,,,2021_Apr_09_1311,60.1359433265,sp13_replication_swe,1,52,
arm,skura,signera,vika,daska,LEG,få göra en rytmisk rörelse med dina fötter,Experimentledaren kommer nu att visa dig den rytmiska rörelsen som du ska göra med dina fötter. Du kommer att få gott om tid för att öva på den innan du börjar med uppgiften.,0,0,0,0,,,,,0,2,2,2,0,0,0,0,,,,,0,12,12,12,space,4.25048759999,,,,,,,,,2021_Apr_09_1311,60.1359433265,sp13_replication_swe,1,52,
leg,traska,snubbla,vingla,vackla,LEG,få göra en rytmisk rörelse med dina fötter,Experimentledaren kommer nu att visa dig den rytmiska rörelsen som du ska göra med dina fötter. Du kommer att få gott om tid för att öva på den innan du börjar med uppgiften.,0,0,0,0,,,,,0,2,2,2,0,0,0,0,,,,,0,13,13,13,space,3.74363649997,,,,,,,,,2021_Apr_09_1311,60.1359433265,sp13_replication_swe,1,52,
leg,tassa,halta,cykla,skejta,LEG,få göra en rytmisk rörelse med dina fötter,Experimentledaren kommer nu att visa dig den rytmiska rörelsen som du ska göra med dina fötter. Du kommer att få gott om tid för att öva på den innan du börjar med uppgiften.,0,0,0,0,,,,,0,2,2,2,0,0,0,0,,,,,0,14,14,14,space,3.84737129998,,,,,,,,,2021_Apr_09_1311,60.1359433265,sp13_replication_swe,1,52,
leg,promenera,ila,vanka,stiga,LEG,få göra en rytmisk rörelse med dina fötter,Experimentledaren kommer nu att visa dig den rytmiska rörelsen som du ska göra med dina fötter. Du kommer att få gott om tid för att öva på den innan du börjar med uppgiften.,0,0,0,0,,,,,0,2,2,2,0,0,0,0,,,,,0,15,15,15,space,3.40066469996,,,,,,,,,2021_Apr_09_1311,60.1359433265,sp13_replication_swe,1,52,
arm,rota,bulta,ösa,slipa,LEG,få göra en rytmisk rörelse med dina fötter,Experimentledaren kommer nu att visa dig den rytmiska rörelsen som du ska göra med dina fötter. Du kommer att få gott om tid för att öva på den innan du börjar med uppgiften.,0,0,0,0,,,,,0,2,2,2,0,0,0,0,,,,,0,16,16,16,space,3.64427290007,,,,,,,,,2021_Apr_09_1311,60.1359433265,sp13_replication_swe,1,52,
leg,stappla,glida,kila,stampa,LEG,få göra en rytmisk rörelse med dina fötter,Experimentledaren kommer nu att visa dig den rytmiska rörelsen som du ska göra med dina fötter. Du kommer att få gott om tid för att öva på den innan du börjar med uppgiften.,0,0,0,0,,,,,0,2,2,2,0,0,0,0,,,,,0,17,17,17,space,3.43360019999,,,,,,,,,2021_Apr_09_1311,60.1359433265,sp13_replication_swe,1,52,
arm,klappa,skala,slunga,klicka,LEG,få göra en rytmisk rörelse med dina fötter,Experimentledaren kommer nu att visa dig den rytmiska rörelsen som du ska göra med dina fötter. Du kommer att få gott om tid för att öva på den innan du börjar med uppgiften.,0,0,0,0,,,,,0,2,2,2,0,0,0,0,,,,,0,18,18,18,space,4.1799014,,,,,,,,,2021_Apr_09_1311,60.1359433265,sp13_replication_swe,1,52,
arm,knycka,hissa,tvätta,slå,LEG,få göra en rytmisk rörelse med dina fötter,Experimentledaren kommer nu att visa dig den rytmiska rörelsen som du ska göra med dina fötter. Du kommer att få gott om tid för att öva på den innan du börjar med uppgiften.,0,0,0,0,,,,,0,2,2,2,0,0,0,0,,,,,0,19,19,19,space,3.95967280003,,,,,,,,,2021_Apr_09_1311,60.1359433265,sp13_replication_swe,1,52,
leg,smyga,hoppa,knalla,skrida,LEG,få göra en rytmisk rörelse med dina fötter,Experimentledaren kommer nu att visa dig den rytmiska rörelsen som du ska göra med dina fötter. Du kommer att få gott om tid för att öva på den innan du börjar med uppgiften.,0,0,0,0,,,,,0,2,2,2,0,0,0,0,,,,,0,20,20,20,space,3.87231050001,,,,,,,,,2021_Apr_09_1311,60.1359433265,sp13_replication_swe,1,52,
arm,sno,greppa,plocka,hiva,LEG,få göra en rytmisk rörelse med dina fötter,Experimentledaren kommer nu att visa dig den rytmiska rörelsen som du ska göra med dina fötter. Du kommer att få gott om tid för att öva på den innan du börjar med uppgiften.,0,0,0,0,,,,,0,2,2,2,0,0,0,0,,,,,0,21,21,21,space,5.1443095,,,,,,,,,2021_Apr_09_1311,60.1359433265,sp13_replication_swe,1,52,
arm,gripa,dunka,banka,grabba,LEG,få göra en rytmisk rörelse med dina fötter,Experimentledaren kommer nu att visa dig den rytmiska rörelsen som du ska göra med dina fötter. Du kommer att få gott om tid för att öva på den innan du börjar med uppgiften.,0,0,0,0,,,,,0,2,2,2,0,0,0,0,,,,,0,22,22,22,space,4.00801330002,,,,,,,,,2021_Apr_09_1311,60.1359433265,sp13_replication_swe,1,52,
leg,gå,ströva,sparka,knäa,LEG,få göra en rytmisk rörelse med dina fötter,Experimentledaren kommer nu att visa dig den rytmiska rörelsen som du ska göra med dina fötter. Du kommer att få gott om tid för att öva på den innan du börjar med uppgiften.,0,0,0,0,,,,,0,2,2,2,0,0,0,0,,,,,0,23,23,23,space,5.9342739,,,,,,,,,2021_Apr_09_1311,60.1359433265,sp13_replication_swe,1,52,
leg,ragla,flanera,marschera,löpa,LEG,få göra en rytmisk rörelse med dina fötter,Experimentledaren kommer nu att visa dig den rytmiska rörelsen som du ska göra med dina fötter. Du kommer att få gott om tid för att öva på den innan du börjar med uppgiften.,0,0,0,0,,,,,0,2,2,2,0,0,0,0,,,,,0,24,24,24,space,6.46838520002,,,,,,,,,2021_Apr_09_1311,60.1359433265,sp13_replication_swe,1,52,
leg,vada,trippa,stå,linka,LEG,få göra en rytmisk rörelse med dina fötter,Experimentledaren kommer nu att visa dig den rytmiska rörelsen som du ska göra med dina fötter. Du kommer att få gott om tid för att öva på den innan du börjar med uppgiften.,0,0,0,0,,,,,0,2,2,2,0,0,0,0,,,,,0,25,25,25,space,4.46323739993,,,,,,,,,2021_Apr_09_1311,60.1359433265,sp13_replication_swe,1,52,
,,,,,LEG,få göra en rytmisk rörelse med dina fötter,Experimentledaren kommer nu att visa dig den rytmiska rörelsen som du ska göra med dina fötter. Du kommer att få gott om tid för att öva på den innan du börjar med uppgiften.,0,0,0,0,,,,,0,2,2,2,0,0,0,0,,,,,,,,,,,,,,,,,,,2021_Apr_09_1311,60.1359433265,sp13_replication_swe,1,52,
